finding_type,rule_id,severity,domain,field,message,row_index,usubjid,evidence
SDTM_RULE,SDTM_VS_005,MED,VS,VSORRESU,VSORRESU unit is not consistent with VSTESTCD. (found: 'PULSE / beats/min'),2,ICS001-001,PULSE / beats/min
SDTM_RULE,SDTM_VS_005,MED,VS,VSORRESU,VSORRESU unit is not consistent with VSTESTCD. (found: 'PULSE / beats/min'),8,ICS001-001,PULSE / beats/min
SDTM_RULE,SDTM_VS_005,MED,VS,VSORRESU,VSORRESU unit is not consistent with VSTESTCD. (found: 'PULSE / beats/min'),14,ICS001-001,PULSE / beats/min
SDTM_RULE,SDTM_VS_005,MED,VS,VSORRESU,VSORRESU unit is not consistent with VSTESTCD. (found: 'PULSE / beats/min'),20,ICS001-001,PULSE / beats/min
SDTM_RULE,SDTM_VS_005,MED,VS,VSORRESU,VSORRESU unit is not consistent with VSTESTCD. (found: 'PULSE / beats/min'),26,ICS001-001,PULSE / beats/min
SDTM_RULE,SDTM_VS_005,MED,VS,VSORRESU,VSORRESU unit is not consistent with VSTESTCD. (found: 'PULSE / beats/min'),32,ICS001-001,PULSE / beats/min
SDTM_RULE,SDTM_VS_005,MED,VS,VSORRESU,VSORRESU unit is not consistent with VSTESTCD. (found: 'PULSE / beats/min'),38,ICS001-002,PULSE / beats/min
SDTM_RULE,SDTM_VS_005,MED,VS,VSORRESU,VSORRESU unit is not consistent with VSTESTCD. (found: 'PULSE / beats/min'),44,ICS001-002,PULSE / beats/min
SDTM_RULE,SDTM_VS_005,MED,VS,VSORRESU,VSORRESU unit is not consistent with VSTESTCD. (found: 'PULSE / beats/min'),50,ICS001-002,PULSE / beats/min
SDTM_RULE,SDTM_VS_005,MED,VS,VSORRESU,VSORRESU unit is not consistent with VSTESTCD. (found: 'PULSE / beats/min'),56,ICS001-002,PULSE / beats/min
SDTM_RULE,SDTM_VS_005,MED,VS,VSORRESU,VSORRESU unit is not consistent with VSTESTCD. (found: 'PULSE / beats/min'),62,ICS001-002,PULSE / beats/min
SDTM_RULE,SDTM_VS_005,MED,VS,VSORRESU,VSORRESU unit is not consistent with VSTESTCD. (found: 'PULSE / beats/min'),68,ICS001-002,PULSE / beats/min
SDTM_RULE,SDTM_VS_005,MED,VS,VSORRESU,VSORRESU unit is not consistent with VSTESTCD. (found: 'PULSE / beats/min'),74,ICS001-003,PULSE / beats/min
SDTM_RULE,SDTM_VS_005,MED,VS,VSORRESU,VSORRESU unit is not consistent with VSTESTCD. (found: 'PULSE / beats/min'),80,ICS001-003,PULSE / beats/min
SDTM_RULE,SDTM_VS_005,MED,VS,VSORRESU,VSORRESU unit is not consistent with VSTESTCD. (found: 'PULSE / beats/min'),86,ICS001-003,PULSE / beats/min
SDTM_RULE,SDTM_VS_005,MED,VS,VSORRESU,VSORRESU unit is not consistent with VSTESTCD. (found: 'PULSE / beats/min'),92,ICS001-003,PULSE / beats/min
SDTM_RULE,SDTM_VS_005,MED,VS,VSORRESU,VSORRESU unit is not consistent with VSTESTCD. (found: 'PULSE / beats/min'),98,ICS001-003,PULSE / beats/min
SDTM_RULE,SDTM_VS_005,MED,VS,VSORRESU,VSORRESU unit is not consistent with VSTESTCD. (found: 'PULSE / beats/min'),104,ICS001-003,PULSE / beats/min
SDTM_RULE,SDTM_VS_005,MED,VS,VSORRESU,VSORRESU unit is not consistent with VSTESTCD. (found: 'PULSE / beats/min'),110,ICS001-004,PULSE / beats/min
SDTM_RULE,SDTM_VS_005,MED,VS,VSORRESU,VSORRESU unit is not consistent with VSTESTCD. (found: 'PULSE / beats/min'),116,ICS001-004,PULSE / beats/min
SDTM_RULE,SDTM_VS_005,MED,VS,VSORRESU,VSORRESU unit is not consistent with VSTESTCD. (found: 'PULSE / beats/min'),122,ICS001-004,PULSE / beats/min
SDTM_RULE,SDTM_VS_005,MED,VS,VSORRESU,VSORRESU unit is not consistent with VSTESTCD. (found: 'PULSE / beats/min'),128,ICS001-004,PULSE / beats/min
SDTM_RULE,SDTM_VS_005,MED,VS,VSORRESU,VSORRESU unit is not consistent with VSTESTCD. (found: 'PULSE / beats/min'),134,ICS001-004,PULSE / beats/min
SDTM_RULE,SDTM_VS_005,MED,VS,VSORRESU,VSORRESU unit is not consistent with VSTESTCD. (found: 'PULSE / beats/min'),140,ICS001-004,PULSE / beats/min
SDTM_RULE,SDTM_VS_005,MED,VS,VSORRESU,VSORRESU unit is not consistent with VSTESTCD. (found: 'PULSE / beats/min'),146,ICS001-005,PULSE / beats/min
SDTM_RULE,SDTM_VS_005,MED,VS,VSORRESU,VSORRESU unit is not consistent with VSTESTCD. (found: 'PULSE / beats/min'),152,ICS001-005,PULSE / beats/min
SDTM_RULE,SDTM_VS_005,MED,VS,VSORRESU,VSORRESU unit is not consistent with VSTESTCD. (found: 'PULSE / beats/min'),158,ICS001-005,PULSE / beats/min
SDTM_RULE,SDTM_VS_005,MED,VS,VSORRESU,VSORRESU unit is not consistent with VSTESTCD. (found: 'PULSE / beats/min'),164,ICS001-005,PULSE / beats/min
SDTM_RULE,SDTM_VS_005,MED,VS,VSORRESU,VSORRESU unit is not consistent with VSTESTCD. (found: 'PULSE / beats/min'),170,ICS001-005,PULSE / beats/min
SDTM_RULE,SDTM_VS_005,MED,VS,VSORRESU,VSORRESU unit is not consistent with VSTESTCD. (found: 'PULSE / beats/min'),176,ICS001-005,PULSE / beats/min
SDTM_RULE,SDTM_VS_005,MED,VS,VSORRESU,VSORRESU unit is not consistent with VSTESTCD. (found: 'PULSE / beats/min'),182,ICS001-006,PULSE / beats/min
SDTM_RULE,SDTM_VS_005,MED,VS,VSORRESU,VSORRESU unit is not consistent with VSTESTCD. (found: 'PULSE / beats/min'),188,ICS001-006,PULSE / beats/min
SDTM_RULE,SDTM_VS_005,MED,VS,VSORRESU,VSORRESU unit is not consistent with VSTESTCD. (found: 'PULSE / beats/min'),194,ICS001-006,PULSE / beats/min
SDTM_RULE,SDTM_VS_005,MED,VS,VSORRESU,VSORRESU unit is not consistent with VSTESTCD. (found: 'PULSE / beats/min'),200,ICS001-006,PULSE / beats/min
SDTM_RULE,SDTM_VS_005,MED,VS,VSORRESU,VSORRESU unit is not consistent with VSTESTCD. (found: 'PULSE / beats/min'),206,ICS001-006,PULSE / beats/min
SDTM_RULE,SDTM_VS_005,MED,VS,VSORRESU,VSORRESU unit is not consistent with VSTESTCD. (found: 'PULSE / beats/min'),212,ICS001-006,PULSE / beats/min
SDTM_RULE,SDTM_VS_005,MED,VS,VSORRESU,VSORRESU unit is not consistent with VSTESTCD. (found: 'PULSE / beats/min'),218,ICS001-007,PULSE / beats/min
SDTM_RULE,SDTM_VS_005,MED,VS,VSORRESU,VSORRESU unit is not consistent with VSTESTCD. (found: 'PULSE / beats/min'),224,ICS001-007,PULSE / beats/min
SDTM_RULE,SDTM_VS_005,MED,VS,VSORRESU,VSORRESU unit is not consistent with VSTESTCD. (found: 'PULSE / beats/min'),230,ICS001-007,PULSE / beats/min
SDTM_RULE,SDTM_VS_005,MED,VS,VSORRESU,VSORRESU unit is not consistent with VSTESTCD. (found: 'PULSE / beats/min'),236,ICS001-007,PULSE / beats/min
SDTM_RULE,SDTM_VS_005,MED,VS,VSORRESU,VSORRESU unit is not consistent with VSTESTCD. (found: 'PULSE / beats/min'),242,ICS001-007,PULSE / beats/min
SDTM_RULE,SDTM_VS_005,MED,VS,VSORRESU,VSORRESU unit is not consistent with VSTESTCD. (found: 'PULSE / beats/min'),248,ICS001-007,PULSE / beats/min
SDTM_RULE,SDTM_VS_005,MED,VS,VSORRESU,VSORRESU unit is not consistent with VSTESTCD. (found: 'PULSE / beats/min'),254,ICS001-008,PULSE / beats/min
SDTM_RULE,SDTM_VS_005,MED,VS,VSORRESU,VSORRESU unit is not consistent with VSTESTCD. (found: 'PULSE / beats/min'),260,ICS001-008,PULSE / beats/min
SDTM_RULE,SDTM_VS_005,MED,VS,VSORRESU,VSORRESU unit is not consistent with VSTESTCD. (found: 'PULSE / beats/min'),266,ICS001-008,PULSE / beats/min
SDTM_RULE,SDTM_VS_005,MED,VS,VSORRESU,VSORRESU unit is not consistent with VSTESTCD. (found: 'PULSE / beats/min'),272,ICS001-008,PULSE / beats/min
SDTM_RULE,SDTM_VS_005,MED,VS,VSORRESU,VSORRESU unit is not consistent with VSTESTCD. (found: 'PULSE / beats/min'),278,ICS001-008,PULSE / beats/min
SDTM_RULE,SDTM_VS_005,MED,VS,VSORRESU,VSORRESU unit is not consistent with VSTESTCD. (found: 'PULSE / beats/min'),284,ICS001-008,PULSE / beats/min
SDTM_RULE,SDTM_VS_005,MED,VS,VSORRESU,VSORRESU unit is not consistent with VSTESTCD. (found: 'PULSE / beats/min'),290,ICS001-009,PULSE / beats/min
SDTM_RULE,SDTM_VS_005,MED,VS,VSORRESU,VSORRESU unit is not consistent with VSTESTCD. (found: 'PULSE / beats/min'),296,ICS001-009,PULSE / beats/min
SDTM_RULE,SDTM_VS_005,MED,VS,VSORRESU,VSORRESU unit is not consistent with VSTESTCD. (found: 'PULSE / beats/min'),302,ICS001-009,PULSE / beats/min
SDTM_RULE,SDTM_VS_005,MED,VS,VSORRESU,VSORRESU unit is not consistent with VSTESTCD. (found: 'PULSE / beats/min'),308,ICS001-009,PULSE / beats/min
SDTM_RULE,SDTM_VS_005,MED,VS,VSORRESU,VSORRESU unit is not consistent with VSTESTCD. (found: 'PULSE / beats/min'),314,ICS001-009,PULSE / beats/min
SDTM_RULE,SDTM_VS_005,MED,VS,VSORRESU,VSORRESU unit is not consistent with VSTESTCD. (found: 'PULSE / beats/min'),320,ICS001-009,PULSE / beats/min
SDTM_RULE,SDTM_VS_005,MED,VS,VSORRESU,VSORRESU unit is not consistent with VSTESTCD. (found: 'PULSE / beats/min'),326,ICS001-010,PULSE / beats/min
SDTM_RULE,SDTM_VS_005,MED,VS,VSORRESU,VSORRESU unit is not consistent with VSTESTCD. (found: 'PULSE / beats/min'),332,ICS001-010,PULSE / beats/min
SDTM_RULE,SDTM_VS_005,MED,VS,VSORRESU,VSORRESU unit is not consistent with VSTESTCD. (found: 'PULSE / beats/min'),338,ICS001-010,PULSE / beats/min
SDTM_RULE,SDTM_VS_005,MED,VS,VSORRESU,VSORRESU unit is not consistent with VSTESTCD. (found: 'PULSE / beats/min'),344,ICS001-010,PULSE / beats/min
SDTM_RULE,SDTM_VS_005,MED,VS,VSORRESU,VSORRESU unit is not consistent with VSTESTCD. (found: 'PULSE / beats/min'),350,ICS001-010,PULSE / beats/min
SDTM_RULE,SDTM_VS_005,MED,VS,VSORRESU,VSORRESU unit is not consistent with VSTESTCD. (found: 'PULSE / beats/min'),356,ICS001-010,PULSE / beats/min
SDTM_RULE,SDTM_VS_005,MED,VS,VSORRESU,VSORRESU unit is not consistent with VSTESTCD. (found: 'PULSE / beats/min'),362,ICS001-011,PULSE / beats/min
SDTM_RULE,SDTM_VS_005,MED,VS,VSORRESU,VSORRESU unit is not consistent with VSTESTCD. (found: 'PULSE / beats/min'),368,ICS001-011,PULSE / beats/min
SDTM_RULE,SDTM_VS_005,MED,VS,VSORRESU,VSORRESU unit is not consistent with VSTESTCD. (found: 'PULSE / beats/min'),374,ICS001-011,PULSE / beats/min
SDTM_RULE,SDTM_VS_005,MED,VS,VSORRESU,VSORRESU unit is not consistent with VSTESTCD. (found: 'PULSE / beats/min'),380,ICS001-011,PULSE / beats/min
SDTM_RULE,SDTM_VS_005,MED,VS,VSORRESU,VSORRESU unit is not consistent with VSTESTCD. (found: 'PULSE / beats/min'),386,ICS001-011,PULSE / beats/min
SDTM_RULE,SDTM_VS_005,MED,VS,VSORRESU,VSORRESU unit is not consistent with VSTESTCD. (found: 'PULSE / beats/min'),392,ICS001-011,PULSE / beats/min
SDTM_RULE,SDTM_VS_005,MED,VS,VSORRESU,VSORRESU unit is not consistent with VSTESTCD. (found: 'PULSE / beats/min'),398,ICS001-012,PULSE / beats/min
SDTM_RULE,SDTM_VS_005,MED,VS,VSORRESU,VSORRESU unit is not consistent with VSTESTCD. (found: 'PULSE / beats/min'),404,ICS001-012,PULSE / beats/min
SDTM_RULE,SDTM_VS_005,MED,VS,VSORRESU,VSORRESU unit is not consistent with VSTESTCD. (found: 'PULSE / beats/min'),410,ICS001-012,PULSE / beats/min
SDTM_RULE,SDTM_VS_005,MED,VS,VSORRESU,VSORRESU unit is not consistent with VSTESTCD. (found: 'PULSE / beats/min'),416,ICS001-012,PULSE / beats/min
SDTM_RULE,SDTM_VS_005,MED,VS,VSORRESU,VSORRESU unit is not consistent with VSTESTCD. (found: 'PULSE / beats/min'),422,ICS001-012,PULSE / beats/min
SDTM_RULE,SDTM_VS_005,MED,VS,VSORRESU,VSORRESU unit is not consistent with VSTESTCD. (found: 'PULSE / beats/min'),428,ICS001-012,PULSE / beats/min
SDTM_RULE,SDTM_VS_005,MED,VS,VSORRESU,VSORRESU unit is not consistent with VSTESTCD. (found: 'PULSE / beats/min'),434,ICS001-013,PULSE / beats/min
SDTM_RULE,SDTM_VS_005,MED,VS,VSORRESU,VSORRESU unit is not consistent with VSTESTCD. (found: 'PULSE / beats/min'),440,ICS001-013,PULSE / beats/min
SDTM_RULE,SDTM_VS_005,MED,VS,VSORRESU,VSORRESU unit is not consistent with VSTESTCD. (found: 'PULSE / beats/min'),446,ICS001-013,PULSE / beats/min
SDTM_RULE,SDTM_VS_005,MED,VS,VSORRESU,VSORRESU unit is not consistent with VSTESTCD. (found: 'PULSE / beats/min'),452,ICS001-013,PULSE / beats/min
SDTM_RULE,SDTM_VS_005,MED,VS,VSORRESU,VSORRESU unit is not consistent with VSTESTCD. (found: 'PULSE / beats/min'),458,ICS001-013,PULSE / beats/min
SDTM_RULE,SDTM_VS_005,MED,VS,VSORRESU,VSORRESU unit is not consistent with VSTESTCD. (found: 'PULSE / beats/min'),464,ICS001-013,PULSE / beats/min
SDTM_RULE,SDTM_VS_005,MED,VS,VSORRESU,VSORRESU unit is not consistent with VSTESTCD. (found: 'PULSE / beats/min'),470,ICS001-014,PULSE / beats/min
SDTM_RULE,SDTM_VS_005,MED,VS,VSORRESU,VSORRESU unit is not consistent with VSTESTCD. (found: 'PULSE / beats/min'),476,ICS001-014,PULSE / beats/min
SDTM_RULE,SDTM_VS_005,MED,VS,VSORRESU,VSORRESU unit is not consistent with VSTESTCD. (found: 'PULSE / beats/min'),482,ICS001-014,PULSE / beats/min
SDTM_RULE,SDTM_VS_005,MED,VS,VSORRESU,VSORRESU unit is not consistent with VSTESTCD. (found: 'PULSE / beats/min'),488,ICS001-014,PULSE / beats/min
SDTM_RULE,SDTM_VS_005,MED,VS,VSORRESU,VSORRESU unit is not consistent with VSTESTCD. (found: 'PULSE / beats/min'),494,ICS001-014,PULSE / beats/min
SDTM_RULE,SDTM_VS_005,MED,VS,VSORRESU,VSORRESU unit is not consistent with VSTESTCD. (found: 'PULSE / beats/min'),500,ICS001-014,PULSE / beats/min
SDTM_RULE,SDTM_VS_005,MED,VS,VSORRESU,VSORRESU unit is not consistent with VSTESTCD. (found: 'PULSE / beats/min'),506,ICS001-015,PULSE / beats/min
SDTM_RULE,SDTM_VS_005,MED,VS,VSORRESU,VSORRESU unit is not consistent with VSTESTCD. (found: 'PULSE / beats/min'),512,ICS001-015,PULSE / beats/min
SDTM_RULE,SDTM_VS_005,MED,VS,VSORRESU,VSORRESU unit is not consistent with VSTESTCD. (found: 'PULSE / beats/min'),518,ICS001-015,PULSE / beats/min
SDTM_RULE,SDTM_VS_005,MED,VS,VSORRESU,VSORRESU unit is not consistent with VSTESTCD. (found: 'PULSE / beats/min'),524,ICS001-015,PULSE / beats/min
SDTM_RULE,SDTM_VS_005,MED,VS,VSORRESU,VSORRESU unit is not consistent with VSTESTCD. (found: 'PULSE / beats/min'),530,ICS001-015,PULSE / beats/min
SDTM_RULE,SDTM_VS_005,MED,VS,VSORRESU,VSORRESU unit is not consistent with VSTESTCD. (found: 'PULSE / beats/min'),536,ICS001-015,PULSE / beats/min
SDTM_RULE,SDTM_VS_005,MED,VS,VSORRESU,VSORRESU unit is not consistent with VSTESTCD. (found: 'PULSE / beats/min'),542,ICS001-016,PULSE / beats/min
SDTM_RULE,SDTM_VS_005,MED,VS,VSORRESU,VSORRESU unit is not consistent with VSTESTCD. (found: 'PULSE / beats/min'),548,ICS001-016,PULSE / beats/min
SDTM_RULE,SDTM_VS_005,MED,VS,VSORRESU,VSORRESU unit is not consistent with VSTESTCD. (found: 'PULSE / beats/min'),554,ICS001-016,PULSE / beats/min
SDTM_RULE,SDTM_VS_005,MED,VS,VSORRESU,VSORRESU unit is not consistent with VSTESTCD. (found: 'PULSE / beats/min'),560,ICS001-016,PULSE / beats/min
SDTM_RULE,SDTM_VS_005,MED,VS,VSORRESU,VSORRESU unit is not consistent with VSTESTCD. (found: 'PULSE / beats/min'),566,ICS001-016,PULSE / beats/min
SDTM_RULE,SDTM_VS_005,MED,VS,VSORRESU,VSORRESU unit is not consistent with VSTESTCD. (found: 'PULSE / beats/min'),572,ICS001-016,PULSE / beats/min
SDTM_RULE,SDTM_VS_005,MED,VS,VSORRESU,VSORRESU unit is not consistent with VSTESTCD. (found: 'PULSE / beats/min'),578,ICS001-017,PULSE / beats/min
SDTM_RULE,SDTM_VS_005,MED,VS,VSORRESU,VSORRESU unit is not consistent with VSTESTCD. (found: 'PULSE / beats/min'),584,ICS001-017,PULSE / beats/min
SDTM_RULE,SDTM_VS_005,MED,VS,VSORRESU,VSORRESU unit is not consistent with VSTESTCD. (found: 'PULSE / beats/min'),590,ICS001-017,PULSE / beats/min
SDTM_RULE,SDTM_VS_005,MED,VS,VSORRESU,VSORRESU unit is not consistent with VSTESTCD. (found: 'PULSE / beats/min'),596,ICS001-017,PULSE / beats/min
SDTM_RULE,SDTM_VS_005,MED,VS,VSORRESU,VSORRESU unit is not consistent with VSTESTCD. (found: 'PULSE / beats/min'),602,ICS001-017,PULSE / beats/min
SDTM_RULE,SDTM_VS_005,MED,VS,VSORRESU,VSORRESU unit is not consistent with VSTESTCD. (found: 'PULSE / beats/min'),608,ICS001-017,PULSE / beats/min
SDTM_RULE,SDTM_VS_005,MED,VS,VSORRESU,VSORRESU unit is not consistent with VSTESTCD. (found: 'PULSE / beats/min'),614,ICS001-018,PULSE / beats/min
SDTM_RULE,SDTM_VS_005,MED,VS,VSORRESU,VSORRESU unit is not consistent with VSTESTCD. (found: 'PULSE / beats/min'),620,ICS001-018,PULSE / beats/min
SDTM_RULE,SDTM_VS_005,MED,VS,VSORRESU,VSORRESU unit is not consistent with VSTESTCD. (found: 'PULSE / beats/min'),626,ICS001-018,PULSE / beats/min
SDTM_RULE,SDTM_VS_005,MED,VS,VSORRESU,VSORRESU unit is not consistent with VSTESTCD. (found: 'PULSE / beats/min'),632,ICS001-018,PULSE / beats/min
SDTM_RULE,SDTM_VS_005,MED,VS,VSORRESU,VSORRESU unit is not consistent with VSTESTCD. (found: 'PULSE / beats/min'),638,ICS001-018,PULSE / beats/min
SDTM_RULE,SDTM_VS_005,MED,VS,VSORRESU,VSORRESU unit is not consistent with VSTESTCD. (found: 'PULSE / beats/min'),644,ICS001-018,PULSE / beats/min
SDTM_RULE,SDTM_VS_005,MED,VS,VSORRESU,VSORRESU unit is not consistent with VSTESTCD. (found: 'PULSE / beats/min'),650,ICS001-019,PULSE / beats/min
SDTM_RULE,SDTM_VS_005,MED,VS,VSORRESU,VSORRESU unit is not consistent with VSTESTCD. (found: 'PULSE / beats/min'),656,ICS001-019,PULSE / beats/min
SDTM_RULE,SDTM_VS_005,MED,VS,VSORRESU,VSORRESU unit is not consistent with VSTESTCD. (found: 'PULSE / beats/min'),662,ICS001-019,PULSE / beats/min
SDTM_RULE,SDTM_VS_005,MED,VS,VSORRESU,VSORRESU unit is not consistent with VSTESTCD. (found: 'PULSE / beats/min'),668,ICS001-019,PULSE / beats/min
SDTM_RULE,SDTM_VS_005,MED,VS,VSORRESU,VSORRESU unit is not consistent with VSTESTCD. (found: 'PULSE / beats/min'),674,ICS001-019,PULSE / beats/min
SDTM_RULE,SDTM_VS_005,MED,VS,VSORRESU,VSORRESU unit is not consistent with VSTESTCD. (found: 'PULSE / beats/min'),680,ICS001-019,PULSE / beats/min
SDTM_RULE,SDTM_VS_005,MED,VS,VSORRESU,VSORRESU unit is not consistent with VSTESTCD. (found: 'PULSE / beats/min'),686,ICS001-020,PULSE / beats/min
SDTM_RULE,SDTM_VS_005,MED,VS,VSORRESU,VSORRESU unit is not consistent with VSTESTCD. (found: 'PULSE / beats/min'),692,ICS001-020,PULSE / beats/min
SDTM_RULE,SDTM_VS_005,MED,VS,VSORRESU,VSORRESU unit is not consistent with VSTESTCD. (found: 'PULSE / beats/min'),698,ICS001-020,PULSE / beats/min
SDTM_RULE,SDTM_VS_005,MED,VS,VSORRESU,VSORRESU unit is not consistent with VSTESTCD. (found: 'PULSE / beats/min'),704,ICS001-020,PULSE / beats/min
SDTM_RULE,SDTM_VS_005,MED,VS,VSORRESU,VSORRESU unit is not consistent with VSTESTCD. (found: 'PULSE / beats/min'),710,ICS001-020,PULSE / beats/min
SDTM_RULE,SDTM_VS_005,MED,VS,VSORRESU,VSORRESU unit is not consistent with VSTESTCD. (found: 'PULSE / beats/min'),716,ICS001-020,PULSE / beats/min
SDTM_RULE,SDTM_EX_009,MED,EX,EXDOSU,"EXDOSU should be one of: ['mg', 'g', 'mcg', 'mL', 'IU']. (found: 'MG')",19,ICS001-020,MG
SDTM_RULE,SDTM_LB_002,HIGH,LB,LBORRES,LBORRES is required and must be non-empty.,18,ICS001-017,
SDTM_RULE,SDTM_LB_003,MED,LB,LBTESTCD,"LBTESTCD should be one of: ['ALT', 'AST', 'BILI', 'CREAT', 'BUN', 'HGB', 'HCT', 'WBC', 'PLAT', 'NA', 'K', 'CL', 'GLUC', 'ALB']. (found: 'GLUCOSE')",15,ICS001-014,GLUCOSE
SDTM_RULE,SDTM_LB_004,LOW,LB,LBDTC,LBDTC should be ISO date YYYY-MM-DD. (found: '05/05/2024'),16,ICS001-015,05/05/2024
SDTM_RULE,SDTM_LB_006,LOW,LB,LBNRIND,"LBNRIND should be one of: ['NORMAL', 'HIGH', 'LOW', 'ABNORMAL']. (found: 'ELEVATED')",17,ICS001-016,ELEVATED
SDTM_RULE,SDTM_DS_003,MED,DS,DSDECOD,"DSDECOD should be one of: ['COMPLETED', 'DEATH', 'ADVERSE EVENT', 'LOST TO FOLLOW-UP', 'PHYSICIAN DECISION', 'PROTOCOL DEVIATION', 'WITHDRAWAL BY SUBJECT', 'STUDY TERMINATED BY SPONSOR', 'LACK OF EFFICACY']. (found: 'SUBJECT DECISION')",16,ICS001-017,SUBJECT DECISION
SDTM_RULE,SDTM_DS_005,MED,DS,DSTERM,DSTERM is required and must be non-empty.,16,ICS001-017,
SDTM_RULE,SDTM_DS_006,LOW,DS,DSCAT,"DSCAT should be one of: ['DISPOSITION EVENT', 'PROTOCOL MILESTONE']. (found: 'ENROLLMENT')",19,ICS001-020,ENROLLMENT
SDTM_RULE,SDTM_EG_002,MED,EG,EGTESTCD,"EGTESTCD should be one of: ['QT', 'QTCF', 'QTCB', 'HR', 'PR', 'QRS', 'RR']. (found: 'PACE')",13,ICS001-012,PACE
SDTM_RULE,SDTM_EG_003,LOW,EG,EGDTC,EGDTC should be ISO date YYYY-MM-DD. (found: '05-23-2024'),17,ICS001-016,05-23-2024
SDTM_RULE,SDTM_EG_004,HIGH,EG,EGORRES,EGORRES should be numeric for this EGTESTCD. (found: 'ABNORMAL'),10,ICS001-009,ABNORMAL
SDTM_RULE,SDTM_EG_005,MED,EG,EGORRESU,EGORRESU unit is not consistent with EGTESTCD. (found: 'QT / sec'),14,ICS001-013,QT / sec
SDTM_RULE,SDTM_QS_002,HIGH,QS,QSCAT,QSCAT is required and must be non-empty.,13,ICS001-012,
SDTM_RULE,SDTM_QS_004,LOW,QS,QSDTC,QSDTC should be ISO date YYYY-MM-DD. (found: '04/25/2024'),12,ICS001-011,04/25/2024
SDTM_RULE,SDTM_QS_008,MED,QS,QSREASND,QSREASND is required when QSSTAT is 'NOT DONE'.,9,ICS001-008,
SDTM_RULE,SDTM_RS_003,MED,RS,RSORRES,"RSORRES should be one of: ['CR', 'PR', 'SD', 'PD', 'NE']. (found: 'MIXED')",6,ICS001-007,MIXED
SDTM_RULE,SDTM_RS_004,LOW,RS,RSDTC,RSDTC should be ISO date YYYY-MM-DD. (found: '15/13/2024'),11,ICS001-012,15/13/2024
SDTM_RULE,SDTM_RS_005,LOW,RS,RSEVAL,"RSEVAL should be one of: ['INVESTIGATOR', 'INDEPENDENT ASSESSOR', 'INDEPENDENT REVIEW COMMITTEE']. (found: 'SITE RADIOLOGIST')",8,ICS001-009,SITE RADIOLOGIST
SDTM_RULE,SDTM_RS_008,MED,RS,RSREASND,RSREASND is required when RSSTAT is 'NOT DONE'.,9,ICS001-010,
SDTM_RULE,SDTM_PR_002,HIGH,PR,PRTRT,PRTRT is required and must be non-empty.,5,ICS001-006,
SDTM_RULE,SDTM_PR_003,MED,PR,PRSTDTC,PRSTDTC should be ISO date YYYY-MM-DD. (found: 'not-a-date'),8,ICS001-009,not-a-date
SDTM_RULE,SDTM_PR_005,HIGH,PR,PRSTDTC/PRENDTC,PRSTDTC must be on or before PRENDTC. (found: '2024-04-01 > 2024-03-30'),6,ICS001-007,2024-04-01 > 2024-03-30
SDTM_RULE,SDTM_PR_006,MED,PR,PRCAT,"PRCAT should be one of: ['SURGICAL', 'DIAGNOSTIC', 'THERAPEUTIC', 'OTHER']. (found: 'REHABILITATION')",7,ICS001-008,REHABILITATION
CROSS_DOMAIN,X_IRT_001,HIGH,CROSS,EXSTDTC,EX dosing started before the subject's DM reference start date (RFSTDTC). (found: 'EXSTDTC=2024-04-25 < RFSTDTC=2024-05-01'),0,ICS001-003,EXSTDTC=2024-04-25 < RFSTDTC=2024-05-01
CROSS_DOMAIN,X_IRT_002,MED,CROSS,EXENDTC,EX dosing extended beyond the subject's DM reference end date (RFENDTC). (found: 'last dose=2024-11-10 > RFENDTC=2024-10-31'),0,ICS001-008,last dose=2024-11-10 > RFENDTC=2024-10-31
CROSS_DOMAIN,X_IRT_003,HIGH,CROSS,EXENDTC,EX dosing occurred after the subject's DS disposition date. (found: 'last dose=2024-11-10 > DSSTDTC=2024-10-31'),0,ICS001-008,last dose=2024-11-10 > DSSTDTC=2024-10-31
CROSS_DOMAIN,X_IRT_003,HIGH,CROSS,EXENDTC,EX dosing occurred after the subject's DS disposition date. (found: 'last dose=2025-05-19 > DSSTDTC=2024-06-01'),1,ICS001-011,last dose=2025-05-19 > DSSTDTC=2024-06-01
CROSS_DOMAIN,X_VSAE_002,MED,CROSS,AESTDTC,"AE start date is outside the subject's VS date range. (found: '2024-08-30 vs [2024-03-29, 2024-08-16]')",0,ICS001-007,"2024-08-30 vs [2024-03-29, 2024-08-16]"
CROSS_DOMAIN,X_VSAE_002,MED,CROSS,AESTDTC,"AE start date is outside the subject's VS date range. (found: '2024-09-22 vs [2024-04-04, 2024-08-22]')",1,ICS001-010,"2024-09-22 vs [2024-04-04, 2024-08-22]"
CROSS_DOMAIN,X_VSAE_002,MED,CROSS,AESTDTC,"AE start date is outside the subject's VS date range. (found: '2024-10-15 vs [2024-04-25, 2024-09-12]')",2,ICS001-011,"2024-10-15 vs [2024-04-25, 2024-09-12]"
CROSS_DOMAIN,X_VSAE_002,MED,CROSS,AESTDTC,"AE start date is outside the subject's VS date range. (found: '2024-09-27 vs [2024-04-25, 2024-09-12]')",3,ICS001-011,"2024-09-27 vs [2024-04-25, 2024-09-12]"
CROSS_DOMAIN,X_VSAE_002,MED,CROSS,AESTDTC,"AE start date is outside the subject's VS date range. (found: '2024-11-13 vs [2024-05-23, 2024-10-10]')",4,ICS001-016,"2024-11-13 vs [2024-05-23, 2024-10-10]"
CROSS_DOMAIN,X_VSAE_002,MED,CROSS,AESTDTC,"AE start date is outside the subject's VS date range. (found: '2024-07-21 vs [2024-02-26, 2024-07-15]')",5,ICS001-019,"2024-07-21 vs [2024-02-26, 2024-07-15]"
CROSS_DOMAIN,X_VSAE_002,MED,CROSS,AESTDTC,"AE start date is outside the subject's VS date range. (found: '2024-07-31 vs [2024-02-26, 2024-07-15]')",6,ICS001-019,"2024-07-31 vs [2024-02-26, 2024-07-15]"
CROSS_DOMAIN,X_VSAE_002,MED,CROSS,AESTDTC,"AE start date is outside the subject's VS date range. (found: '2024-09-30 vs [2024-05-06, 2024-09-23]')",7,ICS001-020,"2024-09-30 vs [2024-05-06, 2024-09-23]"
SDTM_RULE,GENERIC_DOSE_001,MED,GENERAL,DOSE,DOSE failed validation rule. (found: '0.0'),4,ICS001-005,0.0
SDTM_RULE,GENERIC_DOSE_001,MED,GENERAL,DOSE,DOSE failed validation rule. (found: '0.0'),6,ICS001-007,0.0
SDTM_RULE,GENERIC_DOSE_001,MED,GENERAL,DOSE,DOSE failed validation rule. (found: '0.0'),11,ICS001-012,0.0
SDTM_RULE,GENERIC_DOSE_001,MED,GENERAL,DOSE,DOSE failed validation rule. (found: '0.0'),12,ICS001-013,0.0
SDTM_RULE,GENERIC_DOSE_001,MED,GENERAL,DOSE,DOSE failed validation rule. (found: '0.0'),13,ICS001-014,0.0
SDTM_RULE,GENERIC_DOSE_001,MED,GENERAL,DOSE,DOSE failed validation rule.,15,ICS001-016,
SDTM_RULE,GENERIC_DOSE_001,MED,GENERAL,DOSE,DOSE failed validation rule. (found: '0.0'),18,ICS001-019,0.0
ANOMALY,ANOMALY_001,LOW,GENERAL,multivariate,"Statistical outlier detected by IsolationForest. (found: AGE=23, SYSBP=142.23333333333332, DOSE=100.0, ALT=65.0, QTCF=410.0, QS_SCORE=1.5, PR_COUNT=1.0)",1,ICS001-002,"AGE=23, SYSBP=142.23333333333332, DOSE=100.0, ALT=65.0, QTCF=410.0, QS_SCORE=1.5, PR_COUNT=1.0"
