STUDYID,DOMAIN,USUBJID,AETERM,AESTDTC,AEENDTC,AESER,AESEV
STUDY001,AE,STUDY001-001,Headache,2025-01-12,2025-01-13,N,MILD
STUDY001,AE,STUDY001-002,Nausea,2025-01-05,2025-01-04,N,MODERATE
STUDY001,AE,STUDY001-003,Dizziness,2025-01-20,2025-01-21,Y,SEVERE
STUDY001,AE,STUDY001-999,Rash,2025-01-12,2025-01-13,N,MILD
STUDY001,AE,STUDY001-001,,2025-01-14,2025-01-15,N,MILD
STUDY001,AE,STUDY001-002,Fatigue,2025-01-xx,2025-01-10,N,MILD
STUDY001,AE,STUDY001-003,Insomnia,2025-01-18,2025-01-19,Maybe,LOW
