STUDYID,DOMAIN,USUBJID,CMTRT,CMSTDTC,CMENDTC
STUDY001,CM,STUDY001-001,Ibuprofen,2025-01-10,2025-01-12
STUDY001,CM,STUDY001-002,Metformin,2025-01-08,2025-01-30
STUDY001,CM,STUDY001-003,Lisinopril,2025-01-18,2025-01-16
STUDY001,CM,STUDY001-888,Aspirin,2025-01-11,2025-01-12
STUDY001,CM,STUDY001-001,,2025-01-15,2025-01-16
STUDY001,CM,STUDY001-002,Atorvastatin,2025-01-xx,2025-01-20
