STUDYID,DOMAIN,USUBJID,VSTESTCD,VSORRES,VSORRESU,VSDTC,VISITNUM
STUDY001,VS,STUDY001-001,SYSBP,120,mmHg,2025-01-10,1
STUDY001,VS,STUDY001-001,HR,72,bpm,2025-01-10,1
STUDY001,VS,STUDY001-001,TEMP,37,C,2025-01-11,2
STUDY001,VS,STUDY001-002,SYSBP,190,mmHg,2025-01-09,1
STUDY001,VS,STUDY001-002,DIABP,85,mmHg,2025-01-09,1
STUDY001,VS,STUDY001-003,WEIGHT,82,kg,2025-01-15,1
STUDY001,VS,,HR,80,bpm,2025-01-12,1
STUDY001,VS,STUDY001-003,SYSBP,abc,mmHg,2025-01-16,2
STUDY001,VS,STUDY001-003,SYSBP,130,kPa,2025-01-17,3
STUDY001,VS,STUDY001-001,GLUCOSE,95,mg/dL,2025-01-10,1
STUDY001,VS,STUDY001-002,HR,70,bpm,2025-13-01,2
